File: example/FERRO MOD -0.5 to 1.7 V.csv
July 4, 2025   17:02:03
Cyclic Voltammetry
File: d:\serah 2nd year\04-07-25 scanrate opt ll\-0.5 to 1.7\ferro mod -0.5 to 1.7 v.csv
Data Source:  Experiment
Instrument Model:  CHI760D
Header:
Note:

Init E (V) = -0.2
High E (V) = 0.6
Low E (V) = -0.2
Init P/N = P
Scan Rate (V/s) = 0.05
Segment = 2
Sample Interval (V) = 0.001
Quiet Time (sec) = 2
Sensitivity (A/V) = 1e-4

Results:

Channel 1:
Segment 1:

Segment 2:
Ep = 0.081V
Eh = 0.170V
ip = -2.004e-5A
Ah = -3.801e-5C

Potential/V, Current/A

-0.200, -4.080e-8
-0.198, 8.338e-7
-0.196, 9.890e-7
-0.194, 1.071e-6
-0.192, 1.133e-6
-0.190, 1.210e-6
-0.188, 1.239e-6
-0.186, 1.288e-6
-0.184, 1.328e-6
-0.182, 1.359e-6
-0.180, 1.409e-6
-0.178, 1.430e-6
-0.176, 1.459e-6
-0.174, 1.497e-6
-0.172, 1.509e-6
-0.170, 1.542e-6
-0.168, 1.566e-6
-0.166, 1.574e-6
-0.164, 1.614e-6
-0.162, 1.619e-6
-0.160, 1.639e-6
-0.158, 1.665e-6
-0.156, 1.666e-6
-0.154, 1.687e-6
-0.152, 1.710e-6
-0.150, 1.715e-6
-0.148, 1.738e-6
-0.146, 1.739e-6
-0.144, 1.757e-6
-0.142, 1.778e-6
-0.140, 1.769e-6
-0.138, 1.789e-6
-0.136, 1.803e-6
-0.134, 1.804e-6
-0.132, 1.822e-6
-0.130, 1.824e-6
-0.128, 1.837e-6
-0.126, 1.854e-6
-0.124, 1.843e-6
-0.122, 1.861e-6
-0.120, 1.875e-6
-0.118, 1.867e-6
-0.116, 1.893e-6
-0.114, 1.884e-6
-0.112, 1.896e-6
-0.110, 1.916e-6
-0.108, 1.903e-6
-0.106, 1.910e-6
-0.104, 1.924e-6
-0.102, 1.953e-6
-0.100, 1.940e-6
-0.098, 1.935e-6
-0.096, 1.942e-6
-0.094, 1.960e-6
-0.092, 1.951e-6
-0.090, 1.960e-6
-0.088, 1.967e-6
-0.086, 1.959e-6
-0.084, 1.979e-6
-0.082, 1.973e-6
-0.080, 1.976e-6
-0.078, 1.999e-6
-0.076, 1.989e-6
-0.074, 1.997e-6
-0.072, 2.007e-6
-0.070, 1.998e-6
-0.068, 2.014e-6
-0.066, 2.014e-6
-0.064, 2.011e-6
-0.062, 2.030e-6
-0.060, 2.011e-6
-0.058, 2.028e-6
-0.056, 2.040e-6
-0.054, 2.031e-6
-0.052, 2.043e-6
-0.050, 2.045e-6
-0.048, 2.046e-6
-0.046, 2.066e-6
-0.044, 2.059e-6
-0.042, 2.068e-6
-0.040, 2.072e-6
-0.038, 2.073e-6
-0.036, 2.089e-6
-0.034, 2.084e-6
-0.032, 2.097e-6
-0.030, 2.112e-6
-0.028, 2.101e-6
-0.026, 2.116e-6
-0.024, 2.124e-6
-0.022, 2.119e-6
-0.020, 2.140e-6
-0.018, 2.143e-6
-0.016, 2.142e-6
-0.014, 2.167e-6
-0.012, 2.158e-6
-0.010, 2.175e-6
-0.008, 2.184e-6
-0.006, 2.188e-6
-0.004, 2.212e-6
-0.002, 2.208e-6
-0.000, 2.257e-6
0.002, 2.255e-6
0.004, 2.241e-6
0.006, 2.261e-6
0.008, 2.284e-6
0.010, 2.288e-6
0.012, 2.308e-6
0.014, 2.322e-6
0.016, 2.334e-6
0.018, 2.362e-6
0.020, 2.368e-6
0.022, 2.390e-6
0.024, 2.417e-6
0.026, 2.432e-6
0.028, 2.462e-6
0.030, 2.472e-6
0.032, 2.495e-6
0.034, 2.533e-6
0.036, 2.546e-6
0.038, 2.570e-6
0.040, 2.616e-6
0.042, 2.627e-6
0.044, 2.678e-6
0.046, 2.696e-6
0.048, 2.728e-6
0.050, 2.780e-6
0.052, 2.815e-6
0.054, 2.851e-6
0.056, 2.898e-6
0.058, 2.938e-6
0.060, 2.986e-6
0.062, 3.026e-6
0.064, 3.081e-6
0.066, 3.145e-6
0.068, 3.191e-6
0.070, 3.250e-6
0.072, 3.320e-6
0.074, 3.378e-6
0.076, 3.462e-6
0.078, 3.529e-6
0.080, 3.602e-6
0.082, 3.695e-6
0.084, 3.768e-6
0.086, 3.869e-6
0.088, 3.958e-6
0.090, 4.050e-6
0.092, 4.162e-6
0.094, 4.259e-6
0.096, 4.382e-6
0.098, 4.506e-6
0.100, 4.627e-6
0.102, 4.768e-6
0.104, 4.920e-6
0.106, 5.052e-6
0.108, 5.209e-6
0.110, 5.367e-6
0.112, 5.542e-6
0.114, 5.714e-6
0.116, 5.890e-6
0.118, 6.082e-6
0.120, 6.285e-6
0.122, 6.481e-6
0.124, 6.704e-6
0.126, 6.915e-6
0.128, 7.148e-6
0.130, 7.397e-6
0.132, 7.624e-6
0.134, 7.888e-6
0.136, 8.145e-6
0.138, 8.394e-6
0.140, 8.683e-6
0.142, 8.947e-6
0.144, 9.229e-6
0.146, 9.537e-6
0.148, 9.824e-6
0.150, 1.013e-5
0.152, 1.044e-5
0.154, 1.075e-5
0.156, 1.107e-5
0.158, 1.136e-5
0.160, 1.169e-5
0.162, 1.202e-5
0.164, 1.233e-5
0.166, 1.266e-5
0.168, 1.298e-5
0.170, 1.329e-5
0.172, 1.363e-5
0.174, 1.393e-5
0.176, 1.426e-5
0.178, 1.458e-5
0.180, 1.488e-5
0.182, 1.520e-5
0.184, 1.550e-5
0.186, 1.579e-5
0.188, 1.610e-5
0.190, 1.637e-5
0.192, 1.666e-5
0.194, 1.695e-5
0.196, 1.721e-5
0.198, 1.749e-5
0.200, 1.775e-5
0.202, 1.800e-5
0.204, 1.826e-5
0.206, 1.849e-5
0.208, 1.872e-5
0.210, 1.896e-5
0.212, 1.918e-5
0.214, 1.940e-5
0.216, 1.961e-5
0.218, 1.980e-5
0.220, 2.001e-5
0.222, 2.019e-5
0.224, 2.037e-5
0.226, 2.057e-5
0.228, 2.071e-5
0.230, 2.089e-5
0.232, 2.105e-5
0.234, 2.118e-5
0.236, 2.135e-5
0.238, 2.148e-5
0.240, 2.160e-5
0.242, 2.174e-5
0.244, 2.185e-5
0.246, 2.197e-5
0.248, 2.208e-5
0.250, 2.218e-5
0.252, 2.229e-5
0.254, 2.237e-5
0.256, 2.248e-5
0.258, 2.256e-5
0.260, 2.262e-5
0.262, 2.271e-5
0.264, 2.278e-5
0.266, 2.284e-5
0.268, 2.291e-5
0.270, 2.297e-5
0.272, 2.302e-5
0.274, 2.308e-5
0.276, 2.312e-5
0.278, 2.317e-5
0.280, 2.322e-5
0.282, 2.325e-5
0.284, 2.330e-5
0.286, 2.332e-5
0.288, 2.335e-5
0.290, 2.339e-5
0.292, 2.340e-5
0.294, 2.342e-5
0.296, 2.345e-5
0.298, 2.346e-5
0.300, 2.348e-5
0.302, 2.348e-5
0.304, 2.350e-5
0.306, 2.352e-5
0.308, 2.353e-5
0.310, 2.352e-5
0.312, 2.352e-5
0.314, 2.352e-5
0.316, 2.353e-5
0.318, 2.352e-5
0.320, 2.351e-5
0.322, 2.351e-5
0.324, 2.349e-5
0.326, 2.349e-5
0.328, 2.348e-5
0.330, 2.346e-5
0.332, 2.346e-5
0.334, 2.344e-5
0.336, 2.342e-5
0.338, 2.342e-5
0.340, 2.339e-5
0.342, 2.337e-5
0.344, 2.335e-5
0.346, 2.332e-5
0.348, 2.332e-5
0.350, 2.328e-5
0.352, 2.326e-5
0.354, 2.325e-5
0.356, 2.321e-5
0.358, 2.319e-5
0.360, 2.317e-5
0.362, 2.313e-5
0.364, 2.312e-5
0.366, 2.308e-5
0.368, 2.305e-5
0.370, 2.303e-5
0.372, 2.299e-5
0.374, 2.297e-5
0.376, 2.294e-5
0.378, 2.290e-5
0.380, 2.288e-5
0.382, 2.284e-5
0.384, 2.281e-5
0.386, 2.278e-5
0.388, 2.274e-5
0.390, 2.271e-5
0.392, 2.268e-5
0.394, 2.264e-5
0.396, 2.261e-5
0.398, 2.257e-5
0.400, 2.254e-5
0.402, 2.252e-5
0.404, 2.247e-5
0.406, 2.244e-5
0.408, 2.241e-5
0.410, 2.239e-5
0.412, 2.235e-5
0.414, 2.230e-5
0.416, 2.227e-5
0.418, 2.224e-5
0.420, 2.219e-5
0.422, 2.216e-5
0.424, 2.213e-5
0.426, 2.209e-5
0.428, 2.207e-5
0.430, 2.202e-5
0.432, 2.199e-5
0.434, 2.196e-5
0.436, 2.192e-5
0.438, 2.189e-5
0.440, 2.186e-5
0.442, 2.181e-5
0.444, 2.179e-5
0.446, 2.174e-5
0.448, 2.171e-5
0.450, 2.169e-5
0.452, 2.164e-5
0.454, 2.162e-5
0.456, 2.159e-5
0.458, 2.154e-5
0.460, 2.152e-5
0.462, 2.149e-5
0.464, 2.145e-5
0.466, 2.143e-5
0.468, 2.139e-5
0.470, 2.135e-5
0.472, 2.133e-5
0.474, 2.129e-5
0.476, 2.126e-5
0.478, 2.123e-5
0.480, 2.120e-5
0.482, 2.118e-5
0.484, 2.113e-5
0.486, 2.111e-5
0.488, 2.109e-5
0.490, 2.105e-5
0.492, 2.103e-5
0.494, 2.099e-5
0.496, 2.096e-5
0.498, 2.095e-5
0.500, 2.091e-5
0.502, 2.089e-5
0.504, 2.086e-5
0.506, 2.083e-5
0.508, 2.082e-5
0.510, 2.078e-5
0.512, 2.077e-5
0.514, 2.075e-5
0.516, 2.071e-5
0.518, 2.069e-5
0.520, 2.067e-5
0.522, 2.064e-5
0.524, 2.063e-5
0.526, 2.059e-5
0.528, 2.058e-5
0.530, 2.057e-5
0.532, 2.054e-5
0.534, 2.052e-5
0.536, 2.051e-5
0.538, 2.048e-5
0.540, 2.047e-5
0.542, 2.045e-5
0.544, 2.043e-5
0.546, 2.042e-5
0.548, 2.040e-5
0.550, 2.039e-5
0.552, 2.038e-5
0.554, 2.035e-5
0.556, 2.035e-5
0.558, 2.033e-5
0.560, 2.032e-5
0.562, 2.031e-5
0.564, 2.030e-5
0.566, 2.029e-5
0.568, 2.028e-5
0.570, 2.027e-5
0.572, 2.026e-5
0.574, 2.025e-5
0.576, 2.024e-5
0.578, 2.024e-5
0.580, 2.022e-5
0.582, 2.023e-5
0.584, 2.023e-5
0.586, 2.021e-5
0.588, 2.022e-5
0.590, 2.021e-5
0.592, 2.020e-5
0.594, 2.021e-5
0.596, 2.020e-5
0.598, 2.020e-5
0.600, 1.987e-5
0.598, 1.826e-5
0.596, 1.783e-5
0.594, 1.752e-5
0.592, 1.725e-5
0.590, 1.701e-5
0.588, 1.681e-5
0.586, 1.662e-5
0.584, 1.645e-5
0.582, 1.630e-5
0.580, 1.614e-5
0.578, 1.600e-5
0.576, 1.588e-5
0.574, 1.574e-5
0.572, 1.565e-5
0.570, 1.553e-5
0.568, 1.541e-5
0.566, 1.532e-5
0.564, 1.521e-5
0.562, 1.511e-5
0.560, 1.502e-5
0.558, 1.492e-5
0.556, 1.485e-5
0.554, 1.476e-5
0.552, 1.468e-5
0.550, 1.461e-5
0.548, 1.452e-5
0.546, 1.445e-5
0.544, 1.438e-5
0.542, 1.430e-5
0.540, 1.424e-5
0.538, 1.416e-5
0.536, 1.409e-5
0.534, 1.404e-5
0.532, 1.397e-5
0.530, 1.391e-5
0.528, 1.385e-5
0.526, 1.377e-5
0.524, 1.373e-5
0.522, 1.366e-5
0.520, 1.360e-5
0.518, 1.355e-5
0.516, 1.348e-5
0.514, 1.344e-5
0.512, 1.337e-5
0.510, 1.332e-5
0.508, 1.327e-5
0.506, 1.322e-5
0.504, 1.316e-5
0.502, 1.312e-5
0.500, 1.306e-5
0.498, 1.301e-5
0.496, 1.296e-5
0.494, 1.291e-5
0.492, 1.287e-5
0.490, 1.282e-5
0.488, 1.276e-5
0.486, 1.272e-5
0.484, 1.267e-5
0.482, 1.263e-5
0.480, 1.258e-5
0.478, 1.252e-5
0.476, 1.249e-5
0.474, 1.244e-5
0.472, 1.239e-5
0.470, 1.236e-5
0.468, 1.230e-5
0.466, 1.226e-5
0.464, 1.222e-5
0.462, 1.216e-5
0.460, 1.212e-5
0.458, 1.208e-5
0.456, 1.203e-5
0.454, 1.200e-5
0.452, 1.195e-5
0.450, 1.191e-5
0.448, 1.187e-5
0.446, 1.182e-5
0.444, 1.179e-5
0.442, 1.174e-5
0.440, 1.169e-5
0.438, 1.166e-5
0.436, 1.161e-5
0.434, 1.157e-5
0.432, 1.153e-5
0.430, 1.148e-5
0.428, 1.145e-5
0.426, 1.141e-5
0.424, 1.136e-5
0.422, 1.133e-5
0.420, 1.127e-5
0.418, 1.124e-5
0.416, 1.120e-5
0.414, 1.115e-5
0.412, 1.112e-5
0.410, 1.107e-5
0.408, 1.103e-5
0.406, 1.100e-5
0.404, 1.095e-5
0.402, 1.091e-5
0.400, 1.088e-5
0.398, 1.083e-5
0.396, 1.079e-5
0.394, 1.075e-5
0.392, 1.070e-5
0.390, 1.067e-5
0.388, 1.062e-5
0.386, 1.059e-5
0.384, 1.054e-5
0.382, 1.049e-5
0.380, 1.046e-5
0.378, 1.042e-5
0.376, 1.037e-5
0.374, 1.034e-5
0.372, 1.028e-5
0.370, 1.025e-5
0.368, 1.021e-5
0.366, 1.015e-5
0.364, 1.012e-5
0.362, 1.007e-5
0.360, 1.002e-5
0.358, 9.984e-6
0.356, 9.943e-6
0.354, 9.901e-6
0.352, 9.861e-6
0.350, 9.801e-6
0.348, 9.765e-6
0.346, 9.724e-6
0.344, 9.666e-6
0.342, 9.632e-6
0.340, 9.580e-6
0.338, 9.531e-6
0.336, 9.484e-6
0.334, 9.430e-6
0.332, 9.396e-6
0.330, 9.338e-6
0.328, 9.283e-6
0.326, 9.240e-6
0.324, 9.181e-6
0.322, 9.135e-6
0.320, 9.085e-6
0.318, 9.020e-6
0.316, 8.983e-6
0.314, 8.922e-6
0.312, 8.864e-6
0.310, 8.818e-6
0.308, 8.753e-6
0.306, 8.685e-6
0.304, 8.637e-6
0.302, 8.567e-6
0.300, 8.520e-6
0.298, 8.453e-6
0.296, 8.379e-6
0.294, 8.330e-6
0.292, 8.252e-6
0.290, 8.189e-6
0.288, 8.116e-6
0.286, 8.040e-6
0.284, 7.984e-6
0.282, 7.899e-6
0.280, 7.818e-6
0.278, 7.744e-6
0.276, 7.654e-6
0.274, 7.579e-6
0.272, 7.497e-6
0.270, 7.395e-6
0.268, 7.319e-6
0.266, 7.215e-6
0.264, 7.112e-6
0.262, 7.023e-6
0.260, 6.910e-6
0.258, 6.813e-6
0.256, 6.690e-6
0.254, 6.572e-6
0.252, 6.468e-6
0.250, 6.345e-6
0.248, 6.206e-6
0.246, 6.084e-6
0.244, 5.940e-6
0.242, 5.799e-6
0.240, 5.655e-6
0.238, 5.487e-6
0.236, 5.339e-6
0.234, 5.169e-6
0.232, 4.990e-6
0.230, 4.815e-6
0.228, 4.623e-6
0.226, 4.431e-6
0.224, 4.228e-6
0.222, 4.014e-6
0.220, 3.808e-6
0.218, 3.576e-6
0.216, 3.334e-6
0.214, 3.097e-6
0.212, 2.839e-6
0.210, 2.575e-6
0.208, 2.309e-6
0.206, 2.017e-6
0.204, 1.733e-6
0.202, 1.422e-6
0.200, 1.104e-6
0.198, 7.938e-7
0.196, 4.512e-7
0.194, 1.132e-7
0.192, -2.344e-7
0.190, -6.140e-7
0.188, -9.778e-7
0.186, -1.367e-6
0.184, -1.762e-6
0.182, -2.156e-6
0.180, -2.580e-6
0.178, -2.999e-6
0.176, -3.424e-6
0.174, -3.861e-6
0.172, -4.296e-6
0.170, -4.748e-6
0.168, -5.195e-6
0.166, -5.636e-6
0.164, -6.099e-6
0.162, -6.552e-6
0.160, -7.016e-6
0.158, -7.475e-6
0.156, -7.914e-6
0.154, -8.380e-6
0.152, -8.839e-6
0.150, -9.272e-6
0.148, -9.718e-6
0.146, -1.014e-5
0.144, -1.057e-5
0.142, -1.100e-5
0.140, -1.138e-5
0.138, -1.178e-5
0.136, -1.216e-5
0.134, -1.253e-5
0.132, -1.289e-5
0.130, -1.322e-5
0.128, -1.355e-5
0.126, -1.386e-5
0.124, -1.414e-5
0.122, -1.443e-5
0.120, -1.470e-5
0.118, -1.493e-5
0.116, -1.518e-5
0.114, -1.538e-5
0.112, -1.558e-5
0.110, -1.577e-5
0.108, -1.593e-5
0.106, -1.608e-5
0.104, -1.623e-5
0.102, -1.637e-5
0.100, -1.646e-5
0.098, -1.656e-5
0.096, -1.664e-5
0.094, -1.672e-5
0.092, -1.675e-5
0.090, -1.681e-5
0.088, -1.685e-5
0.086, -1.686e-5
0.084, -1.688e-5
0.082, -1.688e-5
0.080, -1.687e-5
0.078, -1.688e-5
0.076, -1.685e-5
0.074, -1.682e-5
0.072, -1.679e-5
0.070, -1.675e-5
0.068, -1.671e-5
0.066, -1.666e-5
0.064, -1.659e-5
0.062, -1.655e-5
0.060, -1.647e-5
0.058, -1.641e-5
0.056, -1.634e-5
0.054, -1.626e-5
0.052, -1.618e-5
0.050, -1.610e-5
0.048, -1.601e-5
0.046, -1.595e-5
0.044, -1.584e-5
0.042, -1.576e-5
0.040, -1.568e-5
0.038, -1.558e-5
0.036, -1.551e-5
0.034, -1.540e-5
0.032, -1.531e-5
0.030, -1.523e-5
0.028, -1.511e-5
0.026, -1.504e-5
0.024, -1.495e-5
0.022, -1.484e-5
0.020, -1.477e-5
0.018, -1.466e-5
0.016, -1.457e-5
0.014, -1.448e-5
0.012, -1.438e-5
0.010, -1.430e-5
0.008, -1.421e-5
0.006, -1.411e-5
0.004, -1.402e-5
0.002, -1.392e-5
0.000, -1.388e-5
-0.002, -1.378e-5
-0.004, -1.366e-5
-0.006, -1.359e-5
-0.008, -1.351e-5
-0.010, -1.341e-5
-0.012, -1.334e-5
-0.014, -1.325e-5
-0.016, -1.316e-5
-0.018, -1.310e-5
-0.020, -1.299e-5
-0.022, -1.291e-5
-0.024, -1.285e-5
-0.026, -1.277e-5
-0.028, -1.270e-5
-0.030, -1.260e-5
-0.032, -1.254e-5
-0.034, -1.247e-5
-0.036, -1.238e-5
-0.038, -1.231e-5
-0.040, -1.225e-5
-0.042, -1.216e-5
-0.044, -1.210e-5
-0.046, -1.203e-5
-0.048, -1.195e-5
-0.050, -1.190e-5
-0.052, -1.183e-5
-0.054, -1.176e-5
-0.056, -1.169e-5
-0.058, -1.163e-5
-0.060, -1.157e-5
-0.062, -1.150e-5
-0.064, -1.144e-5
-0.066, -1.139e-5
-0.068, -1.131e-5
-0.070, -1.126e-5
-0.072, -1.120e-5
-0.074, -1.113e-5
-0.076, -1.108e-5
-0.078, -1.101e-5
-0.080, -1.095e-5
-0.082, -1.091e-5
-0.084, -1.084e-5
-0.086, -1.079e-5
-0.088, -1.075e-5
-0.090, -1.068e-5
-0.092, -1.064e-5
-0.094, -1.058e-5
-0.096, -1.052e-5
-0.098, -1.049e-5
-0.100, -1.043e-5
-0.102, -1.039e-5
-0.104, -1.034e-5
-0.106, -1.028e-5
-0.108, -1.025e-5
-0.110, -1.019e-5
-0.112, -1.014e-5
-0.114, -1.011e-5
-0.116, -1.005e-5
-0.118, -1.001e-5
-0.120, -9.978e-6
-0.122, -9.921e-6
-0.124, -9.894e-6
-0.126, -9.837e-6
-0.128, -9.797e-6
-0.130, -9.768e-6
-0.132, -9.713e-6
-0.134, -9.680e-6
-0.136, -9.647e-6
-0.138, -9.600e-6
-0.140, -9.571e-6
-0.142, -9.525e-6
-0.144, -9.490e-6
-0.146, -9.468e-6
-0.148, -9.417e-6
-0.150, -9.390e-6
-0.152, -9.362e-6
-0.154, -9.324e-6
-0.156, -9.296e-6
-0.158, -9.262e-6
-0.160, -9.231e-6
-0.162, -9.214e-6
-0.164, -9.155e-6
-0.166, -9.139e-6
-0.168, -9.116e-6
-0.170, -9.071e-6
-0.172, -9.066e-6
-0.174, -9.026e-6
-0.176, -9.004e-6
-0.178, -8.993e-6
-0.180, -8.958e-6
-0.182, -8.936e-6
-0.184, -8.917e-6
-0.186, -8.890e-6
-0.188, -8.871e-6
-0.190, -8.845e-6
-0.192, -8.828e-6
-0.194, -8.825e-6
-0.196, -8.783e-6
-0.198, -8.781e-6
-0.199, -8.771e-6