File: example/FERRO BARE.csv
Sept. 12, 2025   15:54:51
Cyclic Voltammetry
File: d:\serah 3rd year\02-09-25 l-lysine stability\ferro bare.csv
Data Source:  Experiment
Instrument Model:  CHI760D
Header:
Note:

Init E (V) = -0.2
High E (V) = 0.6
Low E (V) = -0.2
Init P/N = P
Scan Rate (V/s) = 0.05
Segment = 2
Sample Interval (V) = 0.001
Quiet Time (sec) = 2
Sensitivity (A/V) = 1e-4

Results:

Channel 1:
Segment 1:

Segment 2:

Potential/V, Current/A

-0.200, -3.536e-7
-0.198, 9.907e-9
-0.196, 8.646e-8
-0.194, 1.341e-7
-0.192, 1.726e-7
-0.190, 2.069e-7
-0.188, 2.304e-7
-0.186, 2.610e-7
-0.184, 2.828e-7
-0.182, 3.045e-7
-0.180, 3.279e-7
-0.178, 3.413e-7
-0.176, 3.585e-7
-0.174, 3.805e-7
-0.172, 3.945e-7
-0.170, 4.084e-7
-0.168, 4.263e-7
-0.166, 4.341e-7
-0.164, 4.513e-7
-0.162, 4.577e-7
-0.160, 4.701e-7
-0.158, 4.872e-7
-0.156, 4.920e-7
-0.154, 5.049e-7
-0.152, 5.179e-7
-0.150, 5.087e-7
-0.148, 5.299e-7
-0.146, 5.366e-7
-0.144, 5.432e-7
-0.142, 5.578e-7
-0.140, 5.555e-7
-0.138, 5.669e-7
-0.136, 5.757e-7
-0.134, 5.766e-7
-0.132, 5.898e-7
-0.130, 5.917e-7
-0.128, 6.002e-7
-0.126, 6.104e-7
-0.124, 6.060e-7
-0.122, 6.170e-7
-0.120, 6.250e-7
-0.118, 6.228e-7
-0.116, 6.346e-7
-0.114, 6.358e-7
-0.112, 6.403e-7
-0.110, 6.499e-7
-0.108, 6.479e-7
-0.106, 6.535e-7
-0.104, 6.619e-7
-0.102, 6.732e-7
-0.100, 6.741e-7
-0.098, 6.699e-7
-0.096, 6.771e-7
-0.094, 6.860e-7
-0.092, 6.831e-7
-0.090, 6.878e-7
-0.088, 6.959e-7
-0.086, 6.921e-7
-0.084, 7.032e-7
-0.082, 7.028e-7
-0.080, 7.042e-7
-0.078, 7.175e-7
-0.076, 7.138e-7
-0.074, 7.171e-7
-0.072, 7.223e-7
-0.070, 7.222e-7
-0.068, 7.311e-7
-0.066, 7.337e-7
-0.064, 7.361e-7
-0.062, 7.398e-7
-0.060, 7.422e-7
-0.058, 7.485e-7
-0.056, 7.549e-7
-0.054, 7.542e-7
-0.052, 7.617e-7
-0.050, 7.636e-7
-0.048, 7.641e-7
-0.046, 7.730e-7
-0.044, 7.759e-7
-0.042, 7.819e-7
-0.040, 7.874e-7
-0.038, 7.885e-7
-0.036, 7.978e-7
-0.034, 7.990e-7
-0.032, 8.055e-7
-0.030, 8.135e-7
-0.028, 8.159e-7
-0.026, 8.231e-7
-0.024, 8.319e-7
-0.022, 8.345e-7
-0.020, 8.446e-7
-0.018, 8.513e-7
-0.016, 8.580e-7
-0.014, 8.734e-7
-0.012, 8.777e-7
-0.010, 8.887e-7
-0.008, 9.029e-7
-0.006, 9.099e-7
-0.004, 9.276e-7
-0.002, 9.337e-7
-0.000, 9.664e-7
0.002, 9.729e-7
0.004, 9.783e-7
0.006, 9.978e-7
0.008, 1.017e-6
0.010, 1.028e-6
0.012, 1.054e-6
0.014, 1.072e-6
0.016, 1.094e-6
0.018, 1.128e-6
0.020, 1.146e-6
0.022, 1.178e-6
0.024, 1.209e-6
0.026, 1.239e-6
0.028, 1.280e-6
0.030, 1.313e-6
0.032, 1.358e-6
0.034, 1.406e-6
0.036, 1.445e-6
0.038, 1.493e-6
0.040, 1.549e-6
0.042, 1.605e-6
0.044, 1.670e-6
0.046, 1.731e-6
0.048, 1.800e-6
0.050, 1.891e-6
0.052, 1.969e-6
0.054, 2.054e-6
0.056, 2.148e-6
0.058, 2.244e-6
0.060, 2.361e-6
0.062, 2.475e-6
0.064, 2.597e-6
0.066, 2.737e-6
0.068, 2.880e-6
0.070, 3.037e-6
0.072, 3.199e-6
0.074, 3.380e-6
0.076, 3.581e-6
0.078, 3.774e-6
0.080, 3.994e-6
0.082, 4.237e-6
0.084, 4.479e-6
0.086, 4.760e-6
0.088, 5.034e-6
0.090, 5.333e-6
0.092, 5.674e-6
0.094, 6.004e-6
0.096, 6.381e-6
0.098, 6.784e-6
0.100, 7.172e-6
0.102, 7.635e-6
0.104, 8.121e-6
0.106, 8.599e-6
0.108, 9.129e-6
0.110, 9.663e-6
0.112, 1.026e-5
0.114, 1.088e-5
0.116, 1.150e-5
0.118, 1.218e-5
0.120, 1.289e-5
0.122, 1.365e-5
0.124, 1.443e-5
0.126, 1.521e-5
0.128, 1.608e-5
0.130, 1.697e-5
0.132, 1.783e-5
0.134, 1.880e-5
0.136, 1.975e-5
0.138, 2.075e-5
0.140, 2.181e-5
0.142, 2.280e-5
0.144, 2.388e-5
0.146, 2.498e-5
0.148, 2.608e-5
0.150, 2.725e-5
0.152, 2.835e-5
0.154, 2.953e-5
0.156, 3.070e-5
0.158, 3.180e-5
0.160, 3.300e-5
0.162, 3.416e-5
0.164, 3.528e-5
0.166, 3.644e-5
0.168, 3.752e-5
0.170, 3.862e-5
0.172, 3.970e-5
0.174, 4.072e-5
0.176, 4.172e-5
0.178, 4.268e-5
0.180, 4.362e-5
0.182, 4.451e-5
0.184, 4.530e-5
0.186, 4.607e-5
0.188, 4.681e-5
0.190, 4.742e-5
0.192, 4.803e-5
0.194, 4.857e-5
0.196, 4.901e-5
0.198, 4.945e-5
0.200, 4.976e-5
0.202, 5.005e-5
0.204, 5.027e-5
0.206, 5.041e-5
0.208, 5.052e-5
0.210, 5.054e-5
0.212, 5.051e-5
0.214, 5.045e-5
0.216, 5.032e-5
0.218, 5.013e-5
0.220, 4.995e-5
0.222, 4.965e-5
0.224, 4.939e-5
0.226, 4.907e-5
0.228, 4.869e-5
0.230, 4.834e-5
0.232, 4.794e-5
0.234, 4.751e-5
0.236, 4.709e-5
0.238, 4.662e-5
0.240, 4.616e-5
0.242, 4.571e-5
0.244, 4.522e-5
0.246, 4.475e-5
0.248, 4.427e-5
0.250, 4.379e-5
0.252, 4.332e-5
0.254, 4.283e-5
0.256, 4.237e-5
0.258, 4.191e-5
0.260, 4.144e-5
0.262, 4.099e-5
0.264, 4.055e-5
0.266, 4.010e-5
0.268, 3.969e-5
0.270, 3.926e-5
0.272, 3.884e-5
0.274, 3.845e-5
0.276, 3.805e-5
0.278, 3.766e-5
0.280, 3.728e-5
0.282, 3.691e-5
0.284, 3.656e-5
0.286, 3.620e-5
0.288, 3.586e-5
0.290, 3.553e-5
0.292, 3.520e-5
0.294, 3.489e-5
0.296, 3.458e-5
0.298, 3.428e-5
0.300, 3.398e-5
0.302, 3.370e-5
0.304, 3.342e-5
0.306, 3.315e-5
0.308, 3.289e-5
0.310, 3.263e-5
0.312, 3.238e-5
0.314, 3.214e-5
0.316, 3.190e-5
0.318, 3.166e-5
0.320, 3.144e-5
0.322, 3.123e-5
0.324, 3.100e-5
0.326, 3.079e-5
0.328, 3.059e-5
0.330, 3.039e-5
0.332, 3.020e-5
0.334, 3.000e-5
0.336, 2.982e-5
0.338, 2.964e-5
0.340, 2.946e-5
0.342, 2.929e-5
0.344, 2.912e-5
0.346, 2.895e-5
0.348, 2.879e-5
0.350, 2.863e-5
0.352, 2.848e-5
0.354, 2.833e-5
0.356, 2.818e-5
0.358, 2.803e-5
0.360, 2.789e-5
0.362, 2.775e-5
0.364, 2.762e-5
0.366, 2.749e-5
0.368, 2.735e-5
0.370, 2.723e-5
0.372, 2.710e-5
0.374, 2.698e-5
0.376, 2.686e-5
0.378, 2.674e-5
0.380, 2.663e-5
0.382, 2.652e-5
0.384, 2.641e-5
0.386, 2.630e-5
0.388, 2.618e-5
0.390, 2.609e-5
0.392, 2.599e-5
0.394, 2.588e-5
0.396, 2.578e-5
0.398, 2.568e-5
0.400, 2.559e-5
0.402, 2.550e-5
0.404, 2.541e-5
0.406, 2.532e-5
0.408, 2.523e-5
0.410, 2.515e-5
0.412, 2.506e-5
0.414, 2.497e-5
0.416, 2.489e-5
0.418, 2.481e-5
0.420, 2.472e-5
0.422, 2.465e-5
0.424, 2.458e-5
0.426, 2.450e-5
0.428, 2.443e-5
0.430, 2.436e-5
0.432, 2.428e-5
0.434, 2.421e-5
0.436, 2.414e-5
0.438, 2.407e-5
0.440, 2.401e-5
0.442, 2.394e-5
0.444, 2.388e-5
0.446, 2.381e-5
0.448, 2.374e-5
0.450, 2.369e-5
0.452, 2.362e-5
0.454, 2.356e-5
0.456, 2.351e-5
0.458, 2.345e-5
0.460, 2.339e-5
0.462, 2.333e-5
0.464, 2.327e-5
0.466, 2.322e-5
0.468, 2.317e-5
0.470, 2.311e-5
0.472, 2.306e-5
0.474, 2.301e-5
0.476, 2.296e-5
0.478, 2.291e-5
0.480, 2.285e-5
0.482, 2.281e-5
0.484, 2.275e-5
0.486, 2.271e-5
0.488, 2.267e-5
0.490, 2.262e-5
0.492, 2.258e-5
0.494, 2.253e-5
0.496, 2.249e-5
0.498, 2.245e-5
0.500, 2.240e-5
0.502, 2.236e-5
0.504, 2.232e-5
0.506, 2.227e-5
0.508, 2.224e-5
0.510, 2.220e-5
0.512, 2.217e-5
0.514, 2.213e-5
0.516, 2.208e-5
0.518, 2.204e-5
0.520, 2.201e-5
0.522, 2.197e-5
0.524, 2.194e-5
0.526, 2.190e-5
0.528, 2.187e-5
0.530, 2.184e-5
0.532, 2.179e-5
0.534, 2.176e-5
0.536, 2.174e-5
0.538, 2.170e-5
0.540, 2.167e-5
0.542, 2.164e-5
0.544, 2.161e-5
0.546, 2.158e-5
0.548, 2.154e-5
0.550, 2.152e-5
0.552, 2.149e-5
0.554, 2.146e-5
0.556, 2.144e-5
0.558, 2.140e-5
0.560, 2.137e-5
0.562, 2.135e-5
0.564, 2.132e-5
0.566, 2.129e-5
0.568, 2.127e-5
0.570, 2.124e-5
0.572, 2.122e-5
0.574, 2.119e-5
0.576, 2.117e-5
0.578, 2.115e-5
0.580, 2.112e-5
0.582, 2.109e-5
0.584, 2.107e-5
0.586, 2.104e-5
0.588, 2.103e-5
0.590, 2.100e-5
0.592, 2.098e-5
0.594, 2.096e-5
0.596, 2.094e-5
0.598, 2.092e-5
0.600, 2.073e-5
0.598, 1.990e-5
0.596, 1.962e-5
0.594, 1.941e-5
0.592, 1.923e-5
0.590, 1.906e-5
0.588, 1.891e-5
0.586, 1.878e-5
0.584, 1.866e-5
0.582, 1.854e-5
0.580, 1.843e-5
0.578, 1.833e-5
0.576, 1.823e-5
0.574, 1.814e-5
0.572, 1.806e-5
0.570, 1.797e-5
0.568, 1.788e-5
0.566, 1.781e-5
0.564, 1.773e-5
0.562, 1.766e-5
0.560, 1.759e-5
0.558, 1.752e-5
0.556, 1.746e-5
0.554, 1.739e-5
0.552, 1.733e-5
0.550, 1.727e-5
0.548, 1.721e-5
0.546, 1.715e-5
0.544, 1.710e-5
0.542, 1.704e-5
0.540, 1.699e-5
0.538, 1.693e-5
0.536, 1.688e-5
0.534, 1.683e-5
0.532, 1.678e-5
0.530, 1.674e-5
0.528, 1.669e-5
0.526, 1.664e-5
0.524, 1.660e-5
0.522, 1.656e-5
0.520, 1.651e-5
0.518, 1.647e-5
0.516, 1.643e-5
0.514, 1.638e-5
0.512, 1.634e-5
0.510, 1.630e-5
0.508, 1.626e-5
0.506, 1.622e-5
0.504, 1.618e-5
0.502, 1.615e-5
0.500, 1.610e-5
0.498, 1.607e-5
0.496, 1.603e-5
0.494, 1.599e-5
0.492, 1.596e-5
0.490, 1.593e-5
0.488, 1.589e-5
0.486, 1.586e-5
0.484, 1.582e-5
0.482, 1.579e-5
0.480, 1.575e-5
0.478, 1.571e-5
0.476, 1.569e-5
0.474, 1.565e-5
0.472, 1.562e-5
0.470, 1.560e-5
0.468, 1.556e-5
0.466, 1.553e-5
0.464, 1.550e-5
0.462, 1.546e-5
0.460, 1.544e-5
0.458, 1.541e-5
0.456, 1.538e-5
0.454, 1.535e-5
0.452, 1.532e-5
0.450, 1.529e-5
0.448, 1.526e-5
0.446, 1.523e-5
0.444, 1.520e-5
0.442, 1.517e-5
0.440, 1.514e-5
0.438, 1.512e-5
0.436, 1.509e-5
0.434, 1.506e-5
0.432, 1.503e-5
0.430, 1.500e-5
0.428, 1.498e-5
0.426, 1.495e-5
0.424, 1.492e-5
0.422, 1.490e-5
0.420, 1.487e-5
0.418, 1.485e-5
0.416, 1.482e-5
0.414, 1.479e-5
0.412, 1.477e-5
0.410, 1.474e-5
0.408, 1.471e-5
0.406, 1.469e-5
0.404, 1.466e-5
0.402, 1.464e-5
0.400, 1.461e-5
0.398, 1.458e-5
0.396, 1.456e-5
0.394, 1.454e-5
0.392, 1.451e-5
0.390, 1.448e-5
0.388, 1.446e-5
0.386, 1.443e-5
0.384, 1.441e-5
0.382, 1.438e-5
0.380, 1.436e-5
0.378, 1.433e-5
0.376, 1.430e-5
0.374, 1.428e-5
0.372, 1.425e-5
0.370, 1.422e-5
0.368, 1.420e-5
0.366, 1.417e-5
0.364, 1.414e-5
0.362, 1.411e-5
0.360, 1.408e-5
0.358, 1.405e-5
0.356, 1.402e-5
0.354, 1.399e-5
0.352, 1.396e-5
0.350, 1.393e-5
0.348, 1.391e-5
0.346, 1.388e-5
0.344, 1.384e-5
0.342, 1.381e-5
0.340, 1.377e-5
0.338, 1.374e-5
0.336, 1.370e-5
0.334, 1.366e-5
0.332, 1.363e-5
0.330, 1.359e-5
0.328, 1.354e-5
0.326, 1.350e-5
0.324, 1.346e-5
0.322, 1.342e-5
0.320, 1.337e-5
0.318, 1.331e-5
0.316, 1.326e-5
0.314, 1.321e-5
0.312, 1.315e-5
0.310, 1.310e-5
0.308, 1.302e-5
0.306, 1.295e-5
0.304, 1.289e-5
0.302, 1.282e-5
0.300, 1.274e-5
0.298, 1.266e-5
0.296, 1.257e-5
0.294, 1.249e-5
0.292, 1.239e-5
0.290, 1.228e-5
0.288, 1.217e-5
0.286, 1.205e-5
0.284, 1.194e-5
0.282, 1.181e-5
0.280, 1.166e-5
0.278, 1.152e-5
0.276, 1.137e-5
0.274, 1.120e-5
0.272, 1.102e-5
0.270, 1.083e-5
0.268, 1.063e-5
0.266, 1.042e-5
0.264, 1.020e-5
0.262, 9.959e-6
0.260, 9.687e-6
0.258, 9.425e-6
0.256, 9.120e-6
0.254, 8.806e-6
0.252, 8.494e-6
0.250, 8.138e-6
0.248, 7.770e-6
0.246, 7.386e-6
0.244, 6.951e-6
0.242, 6.531e-6
0.240, 6.065e-6
0.238, 5.551e-6
0.236, 5.049e-6
0.234, 4.488e-6
0.232, 3.908e-6
0.230, 3.296e-6
0.228, 2.635e-6
0.226, 2.004e-6
0.224, 1.278e-6
0.222, 5.274e-7
0.220, -2.044e-7
0.218, -1.039e-6
0.216, -1.867e-6
0.214, -2.724e-6
0.212, -3.642e-6
0.210, -4.577e-6
0.208, -5.538e-6
0.206, -6.547e-6
0.204, -7.525e-6
0.202, -8.615e-6
0.200, -9.668e-6
0.198, -1.078e-5
0.196, -1.193e-5
0.194, -1.302e-5
0.192, -1.419e-5
0.190, -1.537e-5
0.188, -1.650e-5
0.186, -1.772e-5
0.184, -1.889e-5
0.182, -2.004e-5
0.180, -2.123e-5
0.178, -2.238e-5
0.176, -2.350e-5
0.174, -2.464e-5
0.172, -2.572e-5
0.170, -2.684e-5
0.168, -2.786e-5
0.166, -2.884e-5
0.164, -2.986e-5
0.162, -3.073e-5
0.160, -3.163e-5
0.158, -3.246e-5
0.156, -3.319e-5
0.154, -3.394e-5
0.152, -3.462e-5
0.150, -3.518e-5
0.148, -3.574e-5
0.146, -3.616e-5
0.144, -3.658e-5
0.142, -3.691e-5
0.140, -3.714e-5
0.138, -3.737e-5
0.136, -3.751e-5
0.134, -3.759e-5
0.132, -3.763e-5
0.130, -3.756e-5
0.128, -3.748e-5
0.126, -3.736e-5
0.124, -3.714e-5
0.122, -3.693e-5
0.120, -3.668e-5
0.118, -3.632e-5
0.116, -3.604e-5
0.114, -3.563e-5
0.112, -3.525e-5
0.110, -3.485e-5
0.108, -3.442e-5
0.106, -3.397e-5
0.104, -3.351e-5
0.102, -3.308e-5
0.100, -3.259e-5
0.098, -3.209e-5
0.096, -3.160e-5
0.094, -3.112e-5
0.092, -3.062e-5
0.090, -3.014e-5
0.088, -2.967e-5
0.086, -2.918e-5
0.084, -2.872e-5
0.082, -2.825e-5
0.080, -2.779e-5
0.078, -2.734e-5
0.076, -2.689e-5
0.074, -2.646e-5
0.072, -2.604e-5
0.070, -2.562e-5
0.068, -2.522e-5
0.066, -2.481e-5
0.064, -2.442e-5
0.062, -2.405e-5
0.060, -2.366e-5
0.058, -2.331e-5
0.056, -2.296e-5
0.054, -2.262e-5
0.052, -2.229e-5
0.050, -2.196e-5
0.048, -2.164e-5
0.046, -2.134e-5
0.044, -2.103e-5
0.042, -2.074e-5
0.040, -2.046e-5
0.038, -2.018e-5
0.036, -1.991e-5
0.034, -1.964e-5
0.032, -1.938e-5
0.030, -1.914e-5
0.028, -1.888e-5
0.026, -1.865e-5
0.024, -1.842e-5
0.022, -1.819e-5
0.020, -1.798e-5
0.018, -1.776e-5
0.016, -1.755e-5
0.014, -1.735e-5
0.012, -1.714e-5
0.010, -1.695e-5
0.008, -1.676e-5
0.006, -1.657e-5
0.004, -1.639e-5
0.002, -1.622e-5
0.000, -1.606e-5
-0.002, -1.588e-5
-0.004, -1.571e-5
-0.006, -1.555e-5
-0.008, -1.539e-5
-0.010, -1.523e-5
-0.012, -1.508e-5
-0.014, -1.493e-5
-0.016, -1.479e-5
-0.018, -1.465e-5
-0.020, -1.451e-5
-0.022, -1.437e-5
-0.024, -1.424e-5
-0.026, -1.411e-5
-0.028, -1.398e-5
-0.030, -1.385e-5
-0.032, -1.373e-5
-0.034, -1.362e-5
-0.036, -1.349e-5
-0.038, -1.338e-5
-0.040, -1.327e-5
-0.042, -1.314e-5
-0.044, -1.304e-5
-0.046, -1.293e-5
-0.048, -1.282e-5
-0.050, -1.272e-5
-0.052, -1.262e-5
-0.054, -1.252e-5
-0.056, -1.242e-5
-0.058, -1.232e-5
-0.060, -1.223e-5
-0.062, -1.213e-5
-0.064, -1.204e-5
-0.066, -1.195e-5
-0.068, -1.186e-5
-0.070, -1.177e-5
-0.072, -1.169e-5
-0.074, -1.160e-5
-0.076, -1.152e-5
-0.078, -1.144e-5
-0.080, -1.135e-5
-0.082, -1.128e-5
-0.084, -1.119e-5
-0.086, -1.112e-5
-0.088, -1.105e-5
-0.090, -1.096e-5
-0.092, -1.089e-5
-0.094, -1.082e-5
-0.096, -1.075e-5
-0.098, -1.068e-5
-0.100, -1.060e-5
-0.102, -1.055e-5
-0.104, -1.048e-5
-0.106, -1.041e-5
-0.108, -1.034e-5
-0.110, -1.028e-5
-0.112, -1.021e-5
-0.114, -1.016e-5
-0.116, -1.009e-5
-0.118, -1.003e-5
-0.120, -9.974e-6
-0.122, -9.906e-6
-0.124, -9.853e-6
-0.126, -9.794e-6
-0.128, -9.735e-6
-0.130, -9.687e-6
-0.132, -9.627e-6
-0.134, -9.577e-6
-0.136, -9.528e-6
-0.138, -9.471e-6
-0.140, -9.422e-6
-0.142, -9.370e-6
-0.144, -9.317e-6
-0.146, -9.275e-6
-0.148, -9.222e-6
-0.150, -9.172e-6
-0.152, -9.134e-6
-0.154, -9.084e-6
-0.156, -9.041e-6
-0.158, -8.993e-6
-0.160, -8.949e-6
-0.162, -8.912e-6
-0.164, -8.858e-6
-0.166, -8.821e-6
-0.168, -8.786e-6
-0.170, -8.739e-6
-0.172, -8.708e-6
-0.174, -8.668e-6
-0.176, -8.627e-6
-0.178, -8.596e-6
-0.180, -8.555e-6
-0.182, -8.523e-6
-0.184, -8.494e-6
-0.186, -8.453e-6
-0.188, -8.422e-6
-0.190, -8.384e-6
-0.192, -8.353e-6
-0.194, -8.331e-6
-0.196, -8.294e-6
-0.198, -8.267e-6
-0.199, -8.251e-6