File: example/FERRO MOD 9 0.0 to 1.7.csv
July 1, 2025   13:51:56
Cyclic Voltammetry
File: d:\serah 3rd year\02-09-25 l-lysine stability\ferro mod 9 cyclesre.csv
Data Source:  Experiment
Instrument Model:  CHI760D
Header:
Note:

Init E (V) = -0.2
High E (V) = 0.6
Low E (V) = -0.2
Init P/N = P
Scan Rate (V/s) = 0.05
Segment = 2
Sample Interval (V) = 0.001
Quiet Time (sec) = 2
Sensitivity (A/V) = 1e-4

Results:

Channel 1:
Segment 1:

Segment 2:

Potential/V, Current/A

-0.200, -1.136e-6
-0.198, 1.169e-7
-0.196, 4.005e-7
-0.194, 5.429e-7
-0.192, 6.713e-7
-0.190, 7.895e-7
-0.188, 8.681e-7
-0.186, 9.626e-7
-0.184, 1.030e-6
-0.182, 1.090e-6
-0.180, 1.171e-6
-0.178, 1.217e-6
-0.176, 1.269e-6
-0.174, 1.335e-6
-0.172, 1.369e-6
-0.170, 1.424e-6
-0.168, 1.471e-6
-0.166, 1.498e-6
-0.164, 1.546e-6
-0.162, 1.578e-6
-0.160, 1.612e-6
-0.158, 1.651e-6
-0.156, 1.663e-6
-0.154, 1.705e-6
-0.152, 1.740e-6
-0.150, 1.736e-6
-0.148, 1.787e-6
-0.146, 1.796e-6
-0.144, 1.822e-6
-0.142, 1.861e-6
-0.140, 1.849e-6
-0.138, 1.882e-6
-0.136, 1.911e-6
-0.134, 1.919e-6
-0.132, 1.947e-6
-0.130, 1.940e-6
-0.128, 1.962e-6
-0.126, 1.991e-6
-0.124, 1.983e-6
-0.122, 1.999e-6
-0.120, 2.019e-6
-0.118, 2.021e-6
-0.116, 2.048e-6
-0.114, 2.045e-6
-0.112, 2.048e-6
-0.110, 2.080e-6
-0.108, 2.078e-6
-0.106, 2.088e-6
-0.104, 2.102e-6
-0.102, 2.129e-6
-0.100, 2.125e-6
-0.098, 2.106e-6
-0.096, 2.129e-6
-0.094, 2.147e-6
-0.092, 2.133e-6
-0.090, 2.140e-6
-0.088, 2.150e-6
-0.086, 2.148e-6
-0.084, 2.171e-6
-0.082, 2.165e-6
-0.080, 2.163e-6
-0.078, 2.185e-6
-0.076, 2.182e-6
-0.074, 2.182e-6
-0.072, 2.193e-6
-0.070, 2.188e-6
-0.068, 2.206e-6
-0.066, 2.193e-6
-0.064, 2.201e-6
-0.062, 2.214e-6
-0.060, 2.196e-6
-0.058, 2.214e-6
-0.056, 2.217e-6
-0.054, 2.217e-6
-0.052, 2.231e-6
-0.050, 2.223e-6
-0.048, 2.222e-6
-0.046, 2.237e-6
-0.044, 2.229e-6
-0.042, 2.236e-6
-0.040, 2.229e-6
-0.038, 2.229e-6
-0.036, 2.249e-6
-0.034, 2.238e-6
-0.032, 2.240e-6
-0.030, 2.255e-6
-0.028, 2.240e-6
-0.026, 2.244e-6
-0.024, 2.255e-6
-0.022, 2.242e-6
-0.020, 2.252e-6
-0.018, 2.256e-6
-0.016, 2.247e-6
-0.014, 2.272e-6
-0.012, 2.249e-6
-0.010, 2.263e-6
-0.008, 2.270e-6
-0.006, 2.262e-6
-0.004, 2.277e-6
-0.002, 2.266e-6
-0.000, 2.302e-6
0.002, 2.294e-6
0.004, 2.281e-6
0.006, 2.282e-6
0.008, 2.295e-6
0.010, 2.281e-6
0.012, 2.295e-6
0.014, 2.282e-6
0.016, 2.291e-6
0.018, 2.321e-6
0.020, 2.295e-6
0.022, 2.315e-6
0.024, 2.313e-6
0.026, 2.318e-6
0.028, 2.333e-6
0.030, 2.318e-6
0.032, 2.334e-6
0.034, 2.346e-6
0.036, 2.335e-6
0.038, 2.350e-6
0.040, 2.354e-6
0.042, 2.352e-6
0.044, 2.375e-6
0.046, 2.370e-6
0.048, 2.378e-6
0.050, 2.395e-6
0.052, 2.403e-6
0.054, 2.409e-6
0.056, 2.415e-6
0.058, 2.420e-6
0.060, 2.438e-6
0.062, 2.442e-6
0.064, 2.447e-6
0.066, 2.475e-6
0.068, 2.466e-6
0.070, 2.485e-6
0.072, 2.502e-6
0.074, 2.505e-6
0.076, 2.530e-6
0.078, 2.536e-6
0.080, 2.546e-6
0.082, 2.579e-6
0.084, 2.584e-6
0.086, 2.602e-6
0.088, 2.627e-6
0.090, 2.638e-6
0.092, 2.666e-6
0.094, 2.668e-6
0.096, 2.700e-6
0.098, 2.729e-6
0.100, 2.736e-6
0.102, 2.782e-6
0.104, 2.805e-6
0.106, 2.816e-6
0.108, 2.860e-6
0.110, 2.878e-6
0.112, 2.909e-6
0.114, 2.952e-6
0.116, 2.965e-6
0.118, 3.002e-6
0.120, 3.042e-6
0.122, 3.064e-6
0.124, 3.114e-6
0.126, 3.141e-6
0.128, 3.182e-6
0.130, 3.226e-6
0.132, 3.251e-6
0.134, 3.301e-6
0.136, 3.351e-6
0.138, 3.381e-6
0.140, 3.438e-6
0.142, 3.468e-6
0.144, 3.506e-6
0.146, 3.580e-6
0.148, 3.609e-6
0.150, 3.656e-6
0.152, 3.703e-6
0.154, 3.754e-6
0.156, 3.805e-6
0.158, 3.843e-6
0.160, 3.898e-6
0.162, 3.953e-6
0.164, 3.987e-6
0.166, 4.041e-6
0.168, 4.091e-6
0.170, 4.122e-6
0.172, 4.188e-6
0.174, 4.225e-6
0.176, 4.269e-6
0.178, 4.336e-6
0.180, 4.376e-6
0.182, 4.418e-6
0.184, 4.470e-6
0.186, 4.513e-6
0.188, 4.565e-6
0.190, 4.594e-6
0.192, 4.646e-6
0.194, 4.690e-6
0.196, 4.721e-6
0.198, 4.775e-6
0.200, 4.827e-6
0.202, 4.860e-6
0.204, 4.909e-6
0.206, 4.939e-6
0.208, 4.980e-6
0.210, 5.034e-6
0.212, 5.058e-6
0.214, 5.101e-6
0.216, 5.145e-6
0.218, 5.170e-6
0.220, 5.225e-6
0.222, 5.248e-6
0.224, 5.301e-6
0.226, 5.348e-6
0.228, 5.366e-6
0.230, 5.419e-6
0.232, 5.449e-6
0.234, 5.477e-6
0.236, 5.524e-6
0.238, 5.551e-6
0.240, 5.588e-6
0.242, 5.639e-6
0.244, 5.657e-6
0.246, 5.698e-6
0.248, 5.739e-6
0.250, 5.765e-6
0.252, 5.816e-6
0.254, 5.839e-6
0.256, 5.891e-6
0.258, 5.924e-6
0.260, 5.944e-6
0.262, 5.986e-6
0.264, 6.024e-6
0.266, 6.049e-6
0.268, 6.098e-6
0.270, 6.121e-6
0.272, 6.155e-6
0.274, 6.203e-6
0.276, 6.224e-6
0.278, 6.268e-6
0.280, 6.304e-6
0.282, 6.336e-6
0.284, 6.381e-6
0.286, 6.404e-6
0.288, 6.440e-6
0.290, 6.484e-6
0.292, 6.504e-6
0.294, 6.546e-6
0.296, 6.579e-6
0.298, 6.610e-6
0.300, 6.658e-6
0.302, 6.675e-6
0.304, 6.717e-6
0.306, 6.769e-6
0.308, 6.816e-6
0.310, 6.835e-6
0.312, 6.875e-6
0.314, 6.902e-6
0.316, 6.947e-6
0.318, 6.975e-6
0.320, 7.004e-6
0.322, 7.055e-6
0.324, 7.072e-6
0.326, 7.114e-6
0.328, 7.154e-6
0.330, 7.186e-6
0.332, 7.236e-6
0.334, 7.266e-6
0.336, 7.291e-6
0.338, 7.345e-6
0.340, 7.365e-6
0.342, 7.416e-6
0.344, 7.452e-6
0.346, 7.485e-6
0.348, 7.530e-6
0.350, 7.562e-6
0.352, 7.595e-6
0.354, 7.641e-6
0.356, 7.663e-6
0.358, 7.707e-6
0.360, 7.755e-6
0.362, 7.784e-6
0.364, 7.826e-6
0.366, 7.859e-6
0.368, 7.897e-6
0.370, 7.947e-6
0.372, 7.967e-6
0.374, 8.011e-6
0.376, 8.049e-6
0.378, 8.079e-6
0.380, 8.126e-6
0.382, 8.152e-6
0.384, 8.201e-6
0.386, 8.248e-6
0.388, 8.267e-6
0.390, 8.316e-6
0.392, 8.356e-6
0.394, 8.382e-6
0.396, 8.437e-6
0.398, 8.461e-6
0.400, 8.501e-6
0.402, 8.550e-6
0.404, 8.580e-6
0.406, 8.616e-6
0.408, 8.664e-6
0.410, 8.711e-6
0.412, 8.751e-6
0.414, 8.780e-6
0.416, 8.819e-6
0.418, 8.875e-6
0.420, 8.892e-6
0.422, 8.938e-6
0.424, 8.981e-6
0.426, 9.013e-6
0.428, 9.062e-6
0.430, 9.090e-6
0.432, 9.125e-6
0.434, 9.181e-6
0.436, 9.210e-6
0.438, 9.251e-6
0.440, 9.303e-6
0.442, 9.336e-6
0.444, 9.392e-6
0.446, 9.414e-6
0.448, 9.457e-6
0.450, 9.510e-6
0.452, 9.538e-6
0.454, 9.580e-6
0.456, 9.628e-6
0.458, 9.658e-6
0.460, 9.713e-6
0.462, 9.746e-6
0.464, 9.789e-6
0.466, 9.843e-6
0.468, 9.878e-6
0.470, 9.921e-6
0.472, 9.968e-6
0.474, 9.994e-6
0.476, 1.005e-5
0.478, 1.008e-5
0.480, 1.012e-5
0.482, 1.018e-5
0.484, 1.021e-5
0.486, 1.025e-5
0.488, 1.030e-5
0.490, 1.034e-5
0.492, 1.040e-5
0.494, 1.043e-5
0.496, 1.048e-5
0.498, 1.053e-5
0.500, 1.056e-5
0.502, 1.061e-5
0.504, 1.066e-5
0.506, 1.068e-5
0.508, 1.075e-5
0.510, 1.078e-5
0.512, 1.085e-5
0.514, 1.089e-5
0.516, 1.092e-5
0.518, 1.097e-5
0.520, 1.102e-5
0.522, 1.105e-5
0.524, 1.111e-5
0.526, 1.115e-5
0.528, 1.119e-5
0.530, 1.126e-5
0.532, 1.129e-5
0.534, 1.134e-5
0.536, 1.139e-5
0.538, 1.144e-5
0.540, 1.149e-5
0.542, 1.153e-5
0.544, 1.158e-5
0.546, 1.164e-5
0.548, 1.167e-5
0.550, 1.173e-5
0.552, 1.177e-5
0.554, 1.182e-5
0.556, 1.188e-5
0.558, 1.192e-5
0.560, 1.197e-5
0.562, 1.202e-5
0.564, 1.207e-5
0.566, 1.213e-5
0.568, 1.218e-5
0.570, 1.222e-5
0.572, 1.228e-5
0.574, 1.232e-5
0.576, 1.238e-5
0.578, 1.245e-5
0.580, 1.247e-5
0.582, 1.254e-5
0.584, 1.259e-5
0.586, 1.263e-5
0.588, 1.270e-5
0.590, 1.274e-5
0.592, 1.280e-5
0.594, 1.287e-5
0.596, 1.291e-5
0.598, 1.296e-5
0.600, 1.270e-5
0.598, 1.082e-5
0.596, 1.040e-5
0.594, 1.011e-5
0.592, 9.876e-6
0.590, 9.647e-6
0.588, 9.472e-6
0.586, 9.303e-6
0.584, 9.136e-6
0.582, 9.009e-6
0.580, 8.868e-6
0.578, 8.754e-6
0.576, 8.635e-6
0.574, 8.516e-6
0.572, 8.425e-6
0.570, 8.317e-6
0.568, 8.214e-6
0.566, 8.143e-6
0.564, 8.048e-6
0.562, 7.967e-6
0.560, 7.897e-6
0.558, 7.803e-6
0.556, 7.745e-6
0.554, 7.668e-6
0.552, 7.587e-6
0.550, 7.537e-6
0.548, 7.460e-6
0.546, 7.398e-6
0.544, 7.335e-6
0.542, 7.265e-6
0.540, 7.216e-6
0.538, 7.149e-6
0.536, 7.085e-6
0.534, 7.049e-6
0.532, 6.981e-6
0.530, 6.933e-6
0.528, 6.885e-6
0.526, 6.817e-6
0.524, 6.786e-6
0.522, 6.725e-6
0.520, 6.665e-6
0.518, 6.628e-6
0.516, 6.574e-6
0.514, 6.534e-6
0.512, 6.466e-6
0.510, 6.430e-6
0.508, 6.398e-6
0.506, 6.348e-6
0.504, 6.295e-6
0.502, 6.259e-6
0.500, 6.204e-6
0.498, 6.169e-6
0.496, 6.128e-6
0.494, 6.081e-6
0.492, 6.045e-6
0.490, 6.005e-6
0.488, 5.951e-6
0.486, 5.918e-6
0.484, 5.877e-6
0.482, 5.845e-6
0.480, 5.798e-6
0.478, 5.745e-6
0.476, 5.724e-6
0.474, 5.678e-6
0.472, 5.630e-6
0.470, 5.611e-6
0.468, 5.556e-6
0.466, 5.527e-6
0.464, 5.494e-6
0.462, 5.440e-6
0.460, 5.411e-6
0.458, 5.375e-6
0.456, 5.332e-6
0.454, 5.305e-6
0.452, 5.252e-6
0.450, 5.227e-6
0.448, 5.190e-6
0.446, 5.145e-6
0.444, 5.123e-6
0.442, 5.078e-6
0.440, 5.039e-6
0.438, 5.021e-6
0.436, 4.966e-6
0.434, 4.942e-6
0.432, 4.907e-6
0.430, 4.862e-6
0.428, 4.841e-6
0.426, 4.804e-6
0.424, 4.762e-6
0.422, 4.741e-6
0.420, 4.692e-6
0.418, 4.663e-6
0.416, 4.633e-6
0.414, 4.590e-6
0.412, 4.568e-6
0.410, 4.521e-6
0.408, 4.477e-6
0.406, 4.461e-6
0.404, 4.416e-6
0.402, 4.391e-6
0.400, 4.359e-6
0.398, 4.314e-6
0.396, 4.290e-6
0.394, 4.248e-6
0.392, 4.218e-6
0.390, 4.192e-6
0.388, 4.147e-6
0.386, 4.125e-6
0.384, 4.088e-6
0.382, 4.050e-6
0.380, 4.030e-6
0.378, 3.994e-6
0.376, 3.955e-6
0.374, 3.935e-6
0.372, 3.899e-6
0.370, 3.868e-6
0.368, 3.838e-6
0.366, 3.790e-6
0.364, 3.765e-6
0.362, 3.736e-6
0.360, 3.697e-6
0.358, 3.672e-6
0.356, 3.631e-6
0.354, 3.613e-6
0.352, 3.579e-6
0.350, 3.534e-6
0.348, 3.517e-6
0.346, 3.483e-6
0.344, 3.441e-6
0.342, 3.422e-6
0.340, 3.383e-6
0.338, 3.353e-6
0.336, 3.324e-6
0.334, 3.273e-6
0.332, 3.256e-6
0.330, 3.228e-6
0.328, 3.190e-6
0.326, 3.170e-6
0.324, 3.127e-6
0.322, 3.105e-6
0.320, 3.075e-6
0.318, 3.033e-6
0.316, 3.021e-6
0.314, 2.977e-6
0.312, 2.944e-6
0.310, 2.925e-6
0.308, 2.882e-6
0.306, 2.851e-6
0.304, 2.825e-6
0.302, 2.781e-6
0.300, 2.767e-6
0.298, 2.727e-6
0.296, 2.692e-6
0.294, 2.670e-6
0.292, 2.631e-6
0.290, 2.604e-6
0.288, 2.573e-6
0.286, 2.528e-6
0.284, 2.512e-6
0.282, 2.472e-6
0.280, 2.438e-6
0.278, 2.420e-6
0.276, 2.379e-6
0.274, 2.353e-6
0.272, 2.317e-6
0.270, 2.266e-6
0.268, 2.257e-6
0.266, 2.217e-6
0.264, 2.170e-6
0.262, 2.154e-6
0.260, 2.124e-6
0.258, 2.087e-6
0.256, 2.042e-6
0.254, 2.002e-6
0.252, 1.988e-6
0.250, 1.949e-6
0.248, 1.909e-6
0.246, 1.885e-6
0.244, 1.838e-6
0.242, 1.811e-6
0.240, 1.769e-6
0.238, 1.719e-6
0.236, 1.697e-6
0.234, 1.659e-6
0.232, 1.612e-6
0.230, 1.583e-6
0.228, 1.535e-6
0.226, 1.507e-6
0.224, 1.458e-6
0.222, 1.411e-6
0.220, 1.388e-6
0.218, 1.329e-6
0.216, 1.285e-6
0.214, 1.251e-6
0.212, 1.194e-6
0.210, 1.158e-6
0.208, 1.116e-6
0.206, 1.055e-6
0.204, 1.023e-6
0.202, 9.747e-7
0.200, 9.086e-7
0.198, 8.751e-7
0.196, 8.120e-7
0.194, 7.706e-7
0.192, 7.139e-7
0.190, 6.476e-7
0.188, 6.048e-7
0.186, 5.486e-7
0.184, 4.849e-7
0.182, 4.400e-7
0.180, 3.644e-7
0.178, 3.064e-7
0.176, 2.491e-7
0.174, 1.728e-7
0.172, 1.237e-7
0.170, 5.788e-8
0.168, -9.108e-9
0.166, -5.972e-8
0.164, -1.439e-7
0.162, -2.014e-7
0.160, -2.700e-7
0.158, -3.516e-7
0.156, -3.996e-7
0.154, -4.808e-7
0.152, -5.560e-7
0.150, -6.076e-7
0.148, -6.901e-7
0.146, -7.415e-7
0.144, -8.157e-7
0.142, -8.968e-7
0.140, -9.402e-7
0.138, -1.013e-6
0.136, -1.091e-6
0.134, -1.136e-6
0.132, -1.214e-6
0.130, -1.264e-6
0.128, -1.337e-6
0.126, -1.398e-6
0.124, -1.443e-6
0.122, -1.505e-6
0.120, -1.564e-6
0.118, -1.609e-6
0.116, -1.667e-6
0.114, -1.711e-6
0.112, -1.767e-6
0.110, -1.825e-6
0.108, -1.860e-6
0.106, -1.903e-6
0.104, -1.962e-6
0.102, -2.014e-6
0.100, -2.045e-6
0.098, -2.074e-6
0.096, -2.110e-6
0.094, -2.158e-6
0.092, -2.182e-6
0.090, -2.218e-6
0.088, -2.255e-6
0.086, -2.278e-6
0.084, -2.323e-6
0.082, -2.345e-6
0.080, -2.380e-6
0.078, -2.415e-6
0.076, -2.427e-6
0.074, -2.459e-6
0.072, -2.482e-6
0.070, -2.513e-6
0.068, -2.540e-6
0.066, -2.545e-6
0.064, -2.577e-6
0.062, -2.620e-6
0.060, -2.609e-6
0.058, -2.646e-6
0.056, -2.667e-6
0.054, -2.674e-6
0.052, -2.708e-6
0.050, -2.727e-6
0.048, -2.740e-6
0.046, -2.765e-6
0.044, -2.777e-6
0.042, -2.793e-6
0.040, -2.821e-6
0.038, -2.823e-6
0.036, -2.859e-6
0.034, -2.856e-6
0.032, -2.886e-6
0.030, -2.911e-6
0.028, -2.902e-6
0.026, -2.928e-6
0.024, -2.952e-6
0.022, -2.952e-6
0.020, -2.992e-6
0.018, -2.984e-6
0.016, -3.004e-6
0.014, -3.032e-6
0.012, -3.022e-6
0.010, -3.053e-6
0.008, -3.082e-6
0.006, -3.076e-6
0.004, -3.104e-6
0.002, -3.106e-6
0.000, -3.159e-6
-0.002, -3.159e-6
-0.004, -3.150e-6
-0.006, -3.183e-6
-0.008, -3.193e-6
-0.010, -3.198e-6
-0.012, -3.222e-6
-0.014, -3.233e-6
-0.016, -3.244e-6
-0.018, -3.275e-6
-0.020, -3.274e-6
-0.022, -3.304e-6
-0.024, -3.322e-6
-0.026, -3.335e-6
-0.028, -3.355e-6
-0.030, -3.362e-6
-0.032, -3.372e-6
-0.034, -3.403e-6
-0.036, -3.396e-6
-0.038, -3.432e-6
-0.040, -3.449e-6
-0.042, -3.447e-6
-0.044, -3.483e-6
-0.046, -3.486e-6
-0.048, -3.495e-6
-0.050, -3.535e-6
-0.052, -3.547e-6
-0.054, -3.561e-6
-0.056, -3.579e-6
-0.058, -3.591e-6
-0.060, -3.619e-6
-0.062, -3.619e-6
-0.064, -3.638e-6
-0.066, -3.674e-6
-0.068, -3.670e-6
-0.070, -3.694e-6
-0.072, -3.724e-6
-0.074, -3.721e-6
-0.076, -3.754e-6
-0.078, -3.765e-6
-0.080, -3.781e-6
-0.082, -3.817e-6
-0.084, -3.826e-6
-0.086, -3.840e-6
-0.088, -3.871e-6
-0.090, -3.875e-6
-0.092, -3.913e-6
-0.094, -3.921e-6
-0.096, -3.942e-6
-0.098, -3.985e-6
-0.100, -3.974e-6
-0.102, -4.019e-6
-0.104, -4.050e-6
-0.106, -4.052e-6
-0.108, -4.086e-6
-0.110, -4.099e-6
-0.112, -4.121e-6
-0.114, -4.158e-6
-0.116, -4.161e-6
-0.118, -4.187e-6
-0.120, -4.224e-6
-0.122, -4.231e-6
-0.124, -4.280e-6
-0.126, -4.286e-6
-0.128, -4.333e-6
-0.130, -4.360e-6
-0.132, -4.370e-6
-0.134, -4.404e-6
-0.136, -4.445e-6
-0.138, -4.450e-6
-0.140, -4.505e-6
-0.142, -4.516e-6
-0.144, -4.557e-6
-0.146, -4.595e-6
-0.148, -4.613e-6
-0.150, -4.648e-6
-0.152, -4.693e-6
-0.154, -4.722e-6
-0.156, -4.761e-6
-0.158, -4.784e-6
-0.160, -4.820e-6
-0.162, -4.880e-6
-0.164, -4.880e-6
-0.166, -4.936e-6
-0.168, -4.990e-6
-0.170, -5.019e-6
-0.172, -5.071e-6
-0.174, -5.099e-6
-0.176, -5.150e-6
-0.178, -5.203e-6
-0.180, -5.247e-6
-0.182, -5.297e-6
-0.184, -5.348e-6
-0.186, -5.392e-6
-0.188, -5.448e-6
-0.190, -5.494e-6
-0.192, -5.546e-6
-0.194, -5.613e-6
-0.196, -5.649e-6
-0.198, -5.714e-6
-0.199, -5.741e-6