File: example/MOD FERRO CV -1 to 1.7 V.csv
Apr. 16, 2025   17:05:51
Cyclic Voltammetry
File: d:\serah 2nd year\16-04-25 l-arg -1 to 1.7 conc\l-arg 10mm\mod ferro cv.csv
Data Source:  Experiment
Instrument Model:  CHI760D
Header:
Note:

Init E (V) = -0.2
High E (V) = 0.6
Low E (V) = -0.2
Init P/N = P
Scan Rate (V/s) = 0.05
Segment = 2
Sample Interval (V) = 0.001
Quiet Time (sec) = 2
Sensitivity (A/V) = 1e-4

Results:

Channel 1:
Segment 1:

Segment 2:

Potential/V, Current/A

-0.200, -8.057e-6
-0.198, -6.629e-6
-0.196, -6.363e-6
-0.194, -6.231e-6
-0.192, -6.090e-6
-0.190, -5.963e-6
-0.188, -5.872e-6
-0.186, -5.762e-6
-0.184, -5.663e-6
-0.182, -5.603e-6
-0.180, -5.495e-6
-0.178, -5.429e-6
-0.176, -5.363e-6
-0.174, -5.271e-6
-0.172, -5.216e-6
-0.170, -5.143e-6
-0.168, -5.075e-6
-0.166, -5.023e-6
-0.164, -4.950e-6
-0.162, -4.902e-6
-0.160, -4.848e-6
-0.158, -4.766e-6
-0.156, -4.754e-6
-0.154, -4.679e-6
-0.152, -4.629e-6
-0.150, -4.601e-6
-0.148, -4.519e-6
-0.146, -4.501e-6
-0.144, -4.443e-6
-0.142, -4.384e-6
-0.140, -4.374e-6
-0.138, -4.314e-6
-0.136, -4.263e-6
-0.134, -4.233e-6
-0.132, -4.186e-6
-0.130, -4.155e-6
-0.128, -4.109e-6
-0.126, -4.062e-6
-0.124, -4.045e-6
-0.122, -4.011e-6
-0.120, -3.959e-6
-0.118, -3.940e-6
-0.116, -3.876e-6
-0.114, -3.871e-6
-0.112, -3.820e-6
-0.110, -3.776e-6
-0.108, -3.766e-6
-0.106, -3.725e-6
-0.104, -3.686e-6
-0.102, -3.633e-6
-0.100, -3.616e-6
-0.098, -3.612e-6
-0.096, -3.581e-6
-0.094, -3.530e-6
-0.092, -3.528e-6
-0.090, -3.480e-6
-0.088, -3.458e-6
-0.086, -3.441e-6
-0.084, -3.390e-6
-0.082, -3.378e-6
-0.080, -3.353e-6
-0.078, -3.302e-6
-0.076, -3.286e-6
-0.074, -3.256e-6
-0.072, -3.231e-6
-0.070, -3.207e-6
-0.068, -3.169e-6
-0.066, -3.160e-6
-0.064, -3.137e-6
-0.062, -3.089e-6
-0.060, -3.096e-6
-0.058, -3.064e-6
-0.056, -3.039e-6
-0.054, -3.021e-6
-0.052, -2.986e-6
-0.050, -2.963e-6
-0.048, -2.948e-6
-0.046, -2.913e-6
-0.044, -2.907e-6
-0.042, -2.880e-6
-0.040, -2.850e-6
-0.038, -2.853e-6
-0.036, -2.805e-6
-0.034, -2.811e-6
-0.032, -2.783e-6
-0.030, -2.740e-6
-0.028, -2.742e-6
-0.026, -2.698e-6
-0.024, -2.687e-6
-0.022, -2.684e-6
-0.020, -2.641e-6
-0.018, -2.637e-6
-0.016, -2.622e-6
-0.014, -2.579e-6
-0.012, -2.594e-6
-0.010, -2.555e-6
-0.008, -2.538e-6
-0.006, -2.518e-6
-0.004, -2.487e-6
-0.002, -2.492e-6
-0.000, -2.429e-6
0.002, -2.418e-6
0.004, -2.426e-6
0.006, -2.399e-6
0.008, -2.372e-6
0.010, -2.365e-6
0.012, -2.328e-6
0.014, -2.335e-6
0.016, -2.303e-6
0.018, -2.263e-6
0.020, -2.263e-6
0.022, -2.216e-6
0.024, -2.204e-6
0.026, -2.178e-6
0.028, -2.144e-6
0.030, -2.142e-6
0.032, -2.104e-6
0.034, -2.073e-6
0.036, -2.057e-6
0.038, -2.010e-6
0.040, -1.986e-6
0.042, -1.964e-6
0.044, -1.913e-6
0.046, -1.881e-6
0.048, -1.852e-6
0.050, -1.787e-6
0.052, -1.747e-6
0.054, -1.704e-6
0.056, -1.646e-6
0.058, -1.607e-6
0.060, -1.530e-6
0.062, -1.489e-6
0.064, -1.419e-6
0.066, -1.337e-6
0.068, -1.283e-6
0.070, -1.202e-6
0.072, -1.110e-6
0.074, -1.035e-6
0.076, -9.224e-7
0.078, -8.269e-7
0.080, -7.225e-7
0.082, -5.836e-7
0.084, -4.733e-7
0.086, -3.322e-7
0.088, -1.945e-7
0.090, -3.485e-8
0.092, 1.390e-7
0.094, 2.945e-7
0.096, 5.025e-7
0.098, 7.229e-7
0.100, 9.085e-7
0.102, 1.162e-6
0.104, 1.430e-6
0.106, 1.666e-6
0.108, 1.977e-6
0.110, 2.252e-6
0.112, 2.571e-6
0.114, 2.939e-6
0.116, 3.271e-6
0.118, 3.676e-6
0.120, 4.082e-6
0.122, 4.525e-6
0.124, 4.997e-6
0.126, 5.460e-6
0.128, 5.999e-6
0.130, 6.541e-6
0.132, 7.087e-6
0.134, 7.704e-6
0.136, 8.327e-6
0.138, 8.981e-6
0.140, 9.699e-6
0.142, 1.040e-5
0.144, 1.116e-5
0.146, 1.198e-5
0.148, 1.277e-5
0.150, 1.366e-5
0.152, 1.452e-5
0.154, 1.547e-5
0.156, 1.642e-5
0.158, 1.735e-5
0.160, 1.836e-5
0.162, 1.939e-5
0.164, 2.044e-5
0.166, 2.152e-5
0.168, 2.259e-5
0.170, 2.369e-5
0.172, 2.481e-5
0.174, 2.591e-5
0.176, 2.707e-5
0.178, 2.823e-5
0.180, 2.939e-5
0.182, 3.053e-5
0.184, 3.166e-5
0.186, 3.278e-5
0.188, 3.393e-5
0.190, 3.499e-5
0.192, 3.607e-5
0.194, 3.712e-5
0.196, 3.813e-5
0.198, 3.915e-5
0.200, 4.010e-5
0.202, 4.101e-5
0.204, 4.190e-5
0.206, 4.269e-5
0.208, 4.348e-5
0.210, 4.421e-5
0.212, 4.486e-5
0.214, 4.548e-5
0.216, 4.602e-5
0.218, 4.650e-5
0.220, 4.695e-5
0.222, 4.727e-5
0.224, 4.759e-5
0.226, 4.786e-5
0.228, 4.797e-5
0.230, 4.810e-5
0.232, 4.817e-5
0.234, 4.813e-5
0.236, 4.811e-5
0.238, 4.798e-5
0.240, 4.784e-5
0.242, 4.762e-5
0.244, 4.736e-5
0.246, 4.709e-5
0.248, 4.675e-5
0.250, 4.640e-5
0.252, 4.602e-5
0.254, 4.560e-5
0.256, 4.518e-5
0.258, 4.475e-5
0.260, 4.426e-5
0.262, 4.381e-5
0.264, 4.332e-5
0.266, 4.282e-5
0.268, 4.233e-5
0.270, 4.182e-5
0.272, 4.133e-5
0.274, 4.084e-5
0.276, 4.033e-5
0.278, 3.985e-5
0.280, 3.936e-5
0.282, 3.888e-5
0.284, 3.842e-5
0.286, 3.794e-5
0.288, 3.748e-5
0.290, 3.704e-5
0.292, 3.658e-5
0.294, 3.616e-5
0.296, 3.574e-5
0.298, 3.531e-5
0.300, 3.491e-5
0.302, 3.451e-5
0.304, 3.412e-5
0.306, 3.376e-5
0.308, 3.341e-5
0.310, 3.303e-5
0.312, 3.268e-5
0.314, 3.234e-5
0.316, 3.202e-5
0.318, 3.168e-5
0.320, 3.136e-5
0.322, 3.106e-5
0.324, 3.075e-5
0.326, 3.047e-5
0.328, 3.018e-5
0.330, 2.990e-5
0.332, 2.963e-5
0.334, 2.937e-5
0.336, 2.911e-5
0.338, 2.887e-5
0.340, 2.861e-5
0.342, 2.838e-5
0.344, 2.815e-5
0.346, 2.791e-5
0.348, 2.771e-5
0.350, 2.748e-5
0.352, 2.727e-5
0.354, 2.707e-5
0.356, 2.685e-5
0.358, 2.666e-5
0.360, 2.648e-5
0.362, 2.627e-5
0.364, 2.610e-5
0.366, 2.591e-5
0.368, 2.573e-5
0.370, 2.558e-5
0.372, 2.539e-5
0.374, 2.524e-5
0.376, 2.508e-5
0.378, 2.491e-5
0.380, 2.476e-5
0.382, 2.460e-5
0.384, 2.446e-5
0.386, 2.432e-5
0.388, 2.416e-5
0.390, 2.403e-5
0.392, 2.389e-5
0.394, 2.375e-5
0.396, 2.362e-5
0.398, 2.349e-5
0.400, 2.337e-5
0.402, 2.324e-5
0.404, 2.312e-5
0.406, 2.300e-5
0.408, 2.288e-5
0.410, 2.277e-5
0.412, 2.265e-5
0.414, 2.253e-5
0.416, 2.243e-5
0.418, 2.233e-5
0.420, 2.220e-5
0.422, 2.211e-5
0.424, 2.201e-5
0.426, 2.190e-5
0.428, 2.180e-5
0.430, 2.170e-5
0.432, 2.160e-5
0.434, 2.153e-5
0.436, 2.142e-5
0.438, 2.133e-5
0.440, 2.125e-5
0.442, 2.116e-5
0.444, 2.108e-5
0.446, 2.098e-5
0.448, 2.089e-5
0.450, 2.083e-5
0.452, 2.073e-5
0.454, 2.066e-5
0.456, 2.059e-5
0.458, 2.050e-5
0.460, 2.044e-5
0.462, 2.036e-5
0.464, 2.028e-5
0.466, 2.022e-5
0.468, 2.014e-5
0.470, 2.007e-5
0.472, 2.001e-5
0.474, 1.993e-5
0.476, 1.988e-5
0.478, 1.980e-5
0.480, 1.974e-5
0.482, 1.969e-5
0.484, 1.961e-5
0.486, 1.957e-5
0.488, 1.952e-5
0.490, 1.945e-5
0.492, 1.940e-5
0.494, 1.933e-5
0.496, 1.929e-5
0.498, 1.925e-5
0.500, 1.918e-5
0.502, 1.914e-5
0.504, 1.909e-5
0.506, 1.904e-5
0.508, 1.901e-5
0.510, 1.895e-5
0.512, 1.892e-5
0.514, 1.888e-5
0.516, 1.882e-5
0.518, 1.879e-5
0.520, 1.875e-5
0.522, 1.870e-5
0.524, 1.868e-5
0.526, 1.864e-5
0.528, 1.860e-5
0.530, 1.858e-5
0.532, 1.854e-5
0.534, 1.851e-5
0.536, 1.849e-5
0.538, 1.846e-5
0.540, 1.844e-5
0.542, 1.840e-5
0.544, 1.837e-5
0.546, 1.836e-5
0.548, 1.832e-5
0.550, 1.830e-5
0.552, 1.829e-5
0.554, 1.825e-5
0.556, 1.824e-5
0.558, 1.821e-5
0.560, 1.819e-5
0.562, 1.818e-5
0.564, 1.816e-5
0.566, 1.814e-5
0.568, 1.812e-5
0.570, 1.810e-5
0.572, 1.810e-5
0.574, 1.807e-5
0.576, 1.806e-5
0.578, 1.805e-5
0.580, 1.802e-5
0.582, 1.801e-5
0.584, 1.801e-5
0.586, 1.798e-5
0.588, 1.798e-5
0.590, 1.796e-5
0.592, 1.795e-5
0.594, 1.795e-5
0.596, 1.792e-5
0.598, 1.792e-5
0.600, 1.757e-5
0.598, 1.600e-5
0.596, 1.577e-5
0.594, 1.562e-5
0.592, 1.550e-5
0.590, 1.537e-5
0.588, 1.528e-5
0.586, 1.518e-5
0.584, 1.507e-5
0.582, 1.499e-5
0.580, 1.490e-5
0.578, 1.483e-5
0.576, 1.475e-5
0.574, 1.466e-5
0.572, 1.461e-5
0.570, 1.453e-5
0.568, 1.446e-5
0.566, 1.441e-5
0.564, 1.433e-5
0.562, 1.427e-5
0.560, 1.422e-5
0.558, 1.415e-5
0.556, 1.410e-5
0.554, 1.404e-5
0.552, 1.397e-5
0.550, 1.393e-5
0.548, 1.387e-5
0.546, 1.382e-5
0.544, 1.376e-5
0.542, 1.370e-5
0.540, 1.367e-5
0.538, 1.361e-5
0.536, 1.356e-5
0.534, 1.352e-5
0.532, 1.347e-5
0.530, 1.343e-5
0.528, 1.339e-5
0.526, 1.332e-5
0.524, 1.330e-5
0.522, 1.325e-5
0.520, 1.320e-5
0.518, 1.317e-5
0.516, 1.311e-5
0.514, 1.308e-5
0.512, 1.302e-5
0.510, 1.299e-5
0.508, 1.296e-5
0.506, 1.292e-5
0.504, 1.288e-5
0.502, 1.286e-5
0.500, 1.281e-5
0.498, 1.278e-5
0.496, 1.274e-5
0.494, 1.270e-5
0.492, 1.267e-5
0.490, 1.264e-5
0.488, 1.260e-5
0.486, 1.257e-5
0.484, 1.254e-5
0.482, 1.252e-5
0.480, 1.248e-5
0.478, 1.244e-5
0.476, 1.243e-5
0.474, 1.239e-5
0.472, 1.235e-5
0.470, 1.234e-5
0.468, 1.230e-5
0.466, 1.227e-5
0.464, 1.224e-5
0.462, 1.220e-5
0.460, 1.218e-5
0.458, 1.215e-5
0.456, 1.211e-5
0.454, 1.210e-5
0.452, 1.206e-5
0.450, 1.204e-5
0.448, 1.202e-5
0.446, 1.198e-5
0.444, 1.197e-5
0.442, 1.193e-5
0.440, 1.191e-5
0.438, 1.189e-5
0.436, 1.185e-5
0.434, 1.183e-5
0.432, 1.181e-5
0.430, 1.177e-5
0.428, 1.175e-5
0.426, 1.173e-5
0.424, 1.169e-5
0.422, 1.168e-5
0.420, 1.164e-5
0.418, 1.162e-5
0.416, 1.160e-5
0.414, 1.156e-5
0.412, 1.154e-5
0.410, 1.151e-5
0.408, 1.148e-5
0.406, 1.147e-5
0.404, 1.143e-5
0.402, 1.141e-5
0.400, 1.139e-5
0.398, 1.135e-5
0.396, 1.133e-5
0.394, 1.131e-5
0.392, 1.127e-5
0.390, 1.125e-5
0.388, 1.121e-5
0.386, 1.119e-5
0.384, 1.116e-5
0.382, 1.112e-5
0.380, 1.111e-5
0.378, 1.108e-5
0.376, 1.104e-5
0.374, 1.102e-5
0.372, 1.098e-5
0.370, 1.096e-5
0.368, 1.093e-5
0.366, 1.088e-5
0.364, 1.086e-5
0.362, 1.083e-5
0.360, 1.079e-5
0.358, 1.075e-5
0.356, 1.071e-5
0.354, 1.069e-5
0.352, 1.064e-5
0.350, 1.059e-5
0.348, 1.056e-5
0.346, 1.052e-5
0.344, 1.047e-5
0.342, 1.044e-5
0.340, 1.037e-5
0.338, 1.034e-5
0.336, 1.028e-5
0.334, 1.021e-5
0.332, 1.017e-5
0.330, 1.011e-5
0.328, 1.004e-5
0.326, 9.988e-6
0.324, 9.915e-6
0.322, 9.852e-6
0.320, 9.773e-6
0.318, 9.680e-6
0.316, 9.610e-6
0.314, 9.513e-6
0.312, 9.412e-6
0.310, 9.330e-6
0.308, 9.208e-6
0.306, 9.086e-6
0.304, 8.981e-6
0.302, 8.852e-6
0.300, 8.729e-6
0.298, 8.580e-6
0.296, 8.424e-6
0.294, 8.277e-6
0.292, 8.090e-6
0.290, 7.930e-6
0.288, 7.729e-6
0.286, 7.515e-6
0.284, 7.312e-6
0.282, 7.075e-6
0.280, 6.826e-6
0.278, 6.579e-6
0.276, 6.276e-6
0.274, 5.991e-6
0.272, 5.679e-6
0.270, 5.331e-6
0.268, 5.010e-6
0.266, 4.623e-6
0.264, 4.203e-6
0.262, 3.808e-6
0.260, 3.349e-6
0.258, 2.887e-6
0.256, 2.378e-6
0.254, 1.835e-6
0.252, 1.316e-6
0.250, 7.255e-7
0.248, 1.219e-7
0.246, -5.042e-7
0.244, -1.192e-6
0.242, -1.869e-6
0.240, -2.614e-6
0.238, -3.398e-6
0.236, -4.181e-6
0.234, -5.015e-6
0.232, -5.867e-6
0.230, -6.766e-6
0.228, -7.705e-6
0.226, -8.623e-6
0.224, -9.620e-6
0.222, -1.063e-5
0.220, -1.161e-5
0.218, -1.269e-5
0.216, -1.377e-5
0.214, -1.486e-5
0.212, -1.599e-5
0.210, -1.711e-5
0.208, -1.825e-5
0.206, -1.941e-5
0.204, -2.052e-5
0.202, -2.171e-5
0.200, -2.284e-5
0.198, -2.400e-5
0.196, -2.517e-5
0.194, -2.626e-5
0.192, -2.738e-5
0.190, -2.850e-5
0.188, -2.951e-5
0.186, -3.058e-5
0.184, -3.158e-5
0.182, -3.256e-5
0.180, -3.352e-5
0.178, -3.439e-5
0.176, -3.525e-5
0.174, -3.605e-5
0.172, -3.677e-5
0.170, -3.747e-5
0.168, -3.809e-5
0.166, -3.866e-5
0.164, -3.920e-5
0.162, -3.959e-5
0.160, -4.000e-5
0.158, -4.033e-5
0.156, -4.056e-5
0.154, -4.076e-5
0.152, -4.093e-5
0.150, -4.098e-5
0.148, -4.099e-5
0.146, -4.092e-5
0.144, -4.085e-5
0.142, -4.070e-5
0.140, -4.048e-5
0.138, -4.026e-5
0.136, -3.999e-5
0.134, -3.968e-5
0.132, -3.934e-5
0.130, -3.895e-5
0.128, -3.857e-5
0.126, -3.817e-5
0.124, -3.772e-5
0.122, -3.728e-5
0.120, -3.680e-5
0.118, -3.631e-5
0.116, -3.586e-5
0.114, -3.535e-5
0.112, -3.486e-5
0.110, -3.439e-5
0.108, -3.388e-5
0.106, -3.340e-5
0.104, -3.292e-5
0.102, -3.247e-5
0.100, -3.200e-5
0.098, -3.150e-5
0.096, -3.105e-5
0.094, -3.062e-5
0.092, -3.016e-5
0.090, -2.973e-5
0.088, -2.931e-5
0.086, -2.888e-5
0.084, -2.850e-5
0.082, -2.809e-5
0.080, -2.770e-5
0.078, -2.734e-5
0.076, -2.697e-5
0.074, -2.661e-5
0.072, -2.626e-5
0.070, -2.591e-5
0.068, -2.560e-5
0.066, -2.526e-5
0.064, -2.494e-5
0.062, -2.467e-5
0.060, -2.434e-5
0.058, -2.407e-5
0.056, -2.379e-5
0.054, -2.350e-5
0.052, -2.326e-5
0.050, -2.299e-5
0.048, -2.273e-5
0.046, -2.250e-5
0.044, -2.226e-5
0.042, -2.203e-5
0.040, -2.180e-5
0.038, -2.157e-5
0.036, -2.137e-5
0.034, -2.115e-5
0.032, -2.096e-5
0.030, -2.077e-5
0.028, -2.055e-5
0.026, -2.037e-5
0.024, -2.020e-5
0.022, -2.000e-5
0.020, -1.985e-5
0.018, -1.966e-5
0.016, -1.949e-5
0.014, -1.935e-5
0.012, -1.917e-5
0.010, -1.903e-5
0.008, -1.887e-5
0.006, -1.872e-5
0.004, -1.859e-5
0.002, -1.842e-5
0.000, -1.833e-5
-0.002, -1.818e-5
-0.004, -1.802e-5
-0.006, -1.789e-5
-0.008, -1.778e-5
-0.010, -1.763e-5
-0.012, -1.753e-5
-0.014, -1.739e-5
-0.016, -1.728e-5
-0.018, -1.719e-5
-0.020, -1.705e-5
-0.022, -1.694e-5
-0.024, -1.685e-5
-0.026, -1.674e-5
-0.028, -1.663e-5
-0.030, -1.652e-5
-0.032, -1.641e-5
-0.034, -1.634e-5
-0.036, -1.622e-5
-0.038, -1.613e-5
-0.040, -1.604e-5
-0.042, -1.593e-5
-0.044, -1.586e-5
-0.046, -1.575e-5
-0.048, -1.565e-5
-0.050, -1.560e-5
-0.052, -1.550e-5
-0.054, -1.542e-5
-0.056, -1.534e-5
-0.058, -1.524e-5
-0.060, -1.518e-5
-0.062, -1.509e-5
-0.064, -1.500e-5
-0.066, -1.495e-5
-0.068, -1.485e-5
-0.070, -1.479e-5
-0.072, -1.473e-5
-0.074, -1.464e-5
-0.076, -1.458e-5
-0.078, -1.451e-5
-0.080, -1.442e-5
-0.082, -1.438e-5
-0.084, -1.430e-5
-0.086, -1.423e-5
-0.088, -1.417e-5
-0.090, -1.409e-5
-0.092, -1.405e-5
-0.094, -1.397e-5
-0.096, -1.391e-5
-0.098, -1.387e-5
-0.100, -1.378e-5
-0.102, -1.374e-5
-0.104, -1.370e-5
-0.106, -1.361e-5
-0.108, -1.358e-5
-0.110, -1.350e-5
-0.112, -1.345e-5
-0.114, -1.341e-5
-0.116, -1.333e-5
-0.118, -1.330e-5
-0.120, -1.324e-5
-0.122, -1.319e-5
-0.124, -1.315e-5
-0.126, -1.308e-5
-0.128, -1.305e-5
-0.130, -1.302e-5
-0.132, -1.293e-5
-0.134, -1.290e-5
-0.136, -1.286e-5
-0.138, -1.281e-5
-0.140, -1.278e-5
-0.142, -1.272e-5
-0.144, -1.269e-5
-0.146, -1.267e-5
-0.148, -1.261e-5
-0.150, -1.259e-5
-0.152, -1.255e-5
-0.154, -1.252e-5
-0.156, -1.249e-5
-0.158, -1.244e-5
-0.160, -1.241e-5
-0.162, -1.240e-5
-0.164, -1.235e-5
-0.166, -1.233e-5
-0.168, -1.232e-5
-0.170, -1.226e-5
-0.172, -1.227e-5
-0.174, -1.224e-5
-0.176, -1.222e-5
-0.178, -1.222e-5
-0.180, -1.218e-5
-0.182, -1.219e-5
-0.184, -1.218e-5
-0.186, -1.215e-5
-0.188, -1.217e-5
-0.190, -1.214e-5
-0.192, -1.214e-5
-0.194, -1.218e-5
-0.196, -1.214e-5
-0.198, -1.217e-5
-0.199, -1.216e-5